Folder: Master_degree_Thesis/Latex/Final_thesis_document/Raw_Data/DMA

Note: README.md
# Master Degree Thesis

Readme will be upgraded with notes on files and directory structures, as the projects starts getting shaped

File: DMA0
#Temperature|  Modulus      | Loss Modulus    | Tan Delta
-77.7       |2.553E+08      |2.043E+07        |0.079
-75.1       |2.330E+08      |3.514E+07        |0.1508
-72.8       |2.331E+08      |3.121E+07        |0.1339
-70.8       |2.338E+08      |2.913E+07        |0.1246
-68.9       |2.341E+08      |2.791E+07        |0.1192
-66.8       |2.345E+08      |2.671E+07        |0.1139
-64.9       |2.345E+08      |2.597E+07        |0.1107
-63.3       |2.343E+08      |2.548E+07        |0.1087
-61.7       |2.342E+08      |2.489E+07        |0.1063
-60.0       |2.342E+08      |2.447E+07        |0.1045
-58.5       |2.341E+08      |2.413E+07        |0.1030
-57.0       |2.339E+08      |2.396E+07        |0.1024
-55.7       |2.337E+08      |2.357E+07        |0.1009
-54.5       |2.332E+08      |2.331E+07        |0.0999
-53.2       |2.331E+08      |2.309E+07        |0.0991
-51.9       |2.330E+08      |2.291E+07        |0.0983
-50.7       |2.327E+08      |2.262E+07        |0.0972
-49.5       |2.324E+08      |2.264E+07        |0.0974
-48.3       |2.323E+08      |2.261E+07        |0.0974
-47.2       |2.321E+08      |2.250E+07        |0.0969
-46.0       |2.318E+08      |2.244E+07        |0.0968
-45.1       |2.316E+08      |2.238E+07        |0.0966
-44.1       |2.310E+08      |2.225E+07        |0.0963
-43.2       |2.308E+08      |2.203E+07        |0.0955
-42.2       |2.305E+08      |2.199E+07        |0.0954
-41.3       |2.303E+08      |2.200E+07        |0.0956
-40.3       |2.299E+08      |2.203E+07        |0.0958
-39.3       |2.297E+08      |2.198E+07        |0.0957
-38.6       |2.294E+08      |2.200E+07        |0.0959
-37.7       |2.293E+08      |2.195E+07        |0.0957
-36.9       |2.290E+08      |2.192E+07        |0.0957
-36.0       |2.289E+08      |2.187E+07        |0.0955
-35.2       |2.288E+08      |2.191E+07        |0.0958
-34.4       |2.287E+08      |2.177E+07        |0.0952
-33.6       |2.286E+08      |2.181E+07        |0.0954
-32.9       |2.286E+08      |2.185E+07        |0.0956
-32.2       |2.286E+08      |2.186E+07        |0.0957
-31.5       |2.285E+08      |2.181E+07        |0.0955
-30.7       |2.284E+08      |2.184E+07        |0.0956
-29.9       |2.283E+08      |2.168E+07        |0.0949
-29.4       |2.283E+08      |2.154E+07        |0.0943
-27.6       |2.286E+08      |2.165E+07        |0.0947
-24.3       |2.284E+08      |2.128E+07        |0.0932
-22.1       |2.287E+08      |2.100E+07        |0.0918
-21.2       |2.290E+08      |2.087E+07        |0.0912
-18.5       |2.289E+08      |2.074E+07        |0.0906
-16.3       |2.286E+08      |2.039E+07        |0.0892
-15.1       |2.287E+08      |2.030E+07        |0.0888
-13.0       |2.286E+08      |2.032E+07        |0.0889
-10.7       |2.282E+08      |2.023E+07        |0.0887
-9.4        |2.280E+08      |2.018E+07        |0.0885
-7.7        |2.276E+08      |2.040E+07        |0.0896
-6.0        |2.269E+08      |2.052E+07        |0.0904
-4.6        |2.260E+08      |2.077E+07        |0.0919
-2.8        |2.243E+08      |2.120E+07        |0.0945
-1.2        |2.225E+08      |2.157E+07        |0.0969
0.4         |2.198E+08      |2.219E+07        |0.1010
1.8         |2.165E+08      |2.292E+07        |0.1059
3.3         |2.120E+08      |2.355E+07        |0.1111
4.8         |2.066E+08      |2.422E+07        |0.1172
6.0         |2.011E+08      |2.453E+07        |0.1220
7.4         |1.937E+08      |2.473E+07        |0.1277
9.1         |1.844E+08      |2.469E+07        |0.1339
10.5        |1.758E+08      |2.419E+07        |0.1376
11.9        |1.672E+08      |2.360E+07        |0.1412
13.3        |1.586E+08      |2.257E+07        |0.1423
14.8        |1.506E+08      |2.144E+07        |0.1424
16.2        |1.428E+08      |2.021E+07        |0.1415
17.5        |1.361E+08      |1.893E+07        |0.1391
18.9        |1.289E+08      |1.756E+07        |0.1363
20.4        |1.229E+08      |1.626E+07        |0.1323
21.7        |1.178E+08      |1.523E+07        |0.1292
23.0        |1.130E+08      |1.414E+07        |0.1251
24.5        |1.085E+08      |1.301E+07        |0.1199
26.0        |1.043E+08      |1.209E+07        |0.1159
27.4        |1.006E+08      |1.122E+07        |0.1115
28.9        |9.737E+07      |1.044E+07        |0.1072
30.3        |9.465E+07      |9.849E+06        |0.1041
31.6        |9.200E+07      |9.208E+06        |0.1001
33.0        |8.956E+07      |8.620E+06        |0.0962
34.2        |8.748E+07      |8.119E+06        |0.0928
35.9        |8.517E+07      |7.598E+06        |0.0892
37.3        |8.334E+07      |7.090E+06        |0.0851
38.3        |8.171E+07      |6.673E+06        |0.0817
39.9        |7.996E+07      |6.264E+06        |0.0783
41.5        |7.810E+07      |5.840E+06        |0.0748
42.8        |7.656E+07      |5.439E+06        |0.0710
44.3        |7.489E+07      |5.162E+06        |0.0689
45.7        |7.321E+07      |4.861E+06        |0.0664
46.9        |7.163E+07      |4.615E+06        |0.0644
48.4        |6.982E+07      |4.369E+06        |0.0626
49.7        |6.796E+07      |4.180E+06        |0.0615
51.0        |6.608E+07      |3.992E+06        |0.0604
52.4        |6.408E+07      |3.794E+06        |0.0592
53.8        |6.200E+07      |3.687E+06        |0.0595
55.4        |5.967E+07      |3.551E+06        |0.0595
56.8        |5.766E+07      |3.445E+06        |0.0597
57.9        |5.582E+07      |3.374E+06        |0.0604
59.5        |5.390E+07      |3.290E+06        |0.0610
61.2        |5.167E+07      |3.187E+06        |0.0617
62.3        |5.034E+07      |3.168E+06        |0.0629
63.5        |4.899E+07      |3.073E+06        |0.0627
65.1        |4.736E+07      |3.039E+06        |0.0642
66.4        |4.607E+07      |2.977E+06        |0.0646
67.7        |4.495E+07      |2.947E+06        |0.0656
69.0        |4.369E+07      |2.930E+06        |0.0671

File: DMA1
#Temperature   |Modulus       |Loss Modulus    |Tan Delta
-80.9          |2.560E+08     |9.050E+06       |0.0353
-78.8          |2.563E+08     |8.219E+06       |0.0321
-76.4          |2.505E+08     |7.976E+06       |0.0318
-73.4          |2.495E+08     |7.705E+06       |0.0309
-71.0          |2.485E+08     |7.676E+06       |0.0309
-68.3          |2.488E+08     |7.632E+06       |0.0307
-66.0          |2.487E+08     |7.758E+06       |0.0312
-63.7          |2.469E+08     |7.553E+06       |0.0306
-61.2          |2.465E+08     |7.625E+06       |0.0309
-59.0          |2.455E+08     |7.231E+06       |0.0295
-56.8          |2.450E+08     |7.385E+06       |0.0301
-54.8          |2.442E+08     |7.461E+06       |0.0306
-52.9          |2.431E+08     |7.349E+06       |0.0302
-51.0          |2.428E+08     |7.377E+06       |0.0304
-49.3          |2.434E+08     |7.842E+06       |0.0322
-47.6          |2.420E+08     |7.734E+06       |0.0320
-46.1          |2.416E+08     |7.892E+06       |0.0327
-44.7          |2.427E+08     |7.661E+06       |0.0316
-43.1          |2.408E+08     |7.789E+06       |0.0323
-41.8          |2.405E+08     |7.967E+06       |0.0331
-40.4          |2.414E+08     |7.967E+06       |0.0330
-39.1          |2.397E+08     |8.441E+06       |0.0352
-38.0          |2.409E+08     |8.236E+06       |0.0342
-36.7          |2.403E+08     |8.749E+06       |0.0364
-35.5          |2.405E+08     |8.481E+06       |0.0353
-34.4          |2.409E+08     |9.097E+06       |0.0378
-33.3          |2.398E+08     |8.860E+06       |0.0369
-32.1          |2.405E+08     |8.913E+06       |0.0371
-31.1          |2.400E+08     |9.039E+06       |0.0377
-30.1          |2.410E+08     |9.283E+06       |0.0385
-29.3          |2.384E+08     |9.360E+06       |0.0393
-28.3          |2.380E+08     |9.511E+06       |0.0400
-27.4          |2.379E+08     |9.452E+06       |0.0397
-26.5          |2.389E+08     |9.503E+06       |0.0398
-25.6          |2.374E+08     |9.411E+06       |0.0396
-24.7          |2.382E+08     |9.710E+06       |0.0408
-23.9          |2.376E+08     |9.840E+06       |0.0414
-23.1          |2.366E+08     |9.824E+06       |0.0415
-22.4          |2.373E+08     |1.008E+07       |0.0425
-21.6          |2.377E+08     |1.020E+07       |0.0429
-21.0          |2.360E+08     |1.017E+07       |0.0431
-20.2          |2.360E+08     |1.012E+07       |0.0429
-19.5          |2.356E+08     |1.039E+07       |0.0441
-18.7          |2.347E+08     |1.040E+07       |0.0443
-18.1          |2.346E+08     |1.070E+07       |0.0456
-17.4          |2.345E+08     |1.064E+07       |0.0454
-16.9          |2.336E+08     |1.090E+07       |0.0467
-16.2          |2.336E+08     |1.080E+07       |0.0462
-15.6          |2.332E+08     |1.090E+07       |0.0467
-15.0          |2.324E+08     |1.126E+07       |0.0484
-14.4          |2.323E+08     |1.124E+07       |0.0484
-13.8          |2.318E+08     |1.115E+07       |0.0481
-13.3          |2.315E+08     |1.149E+07       |0.0496
-12.5          |2.305E+08     |1.159E+07       |0.0503
-9.4           |2.283E+08     |1.218E+07       |0.0534
-6.6           |2.257E+08     |1.294E+07       |0.0573
-5.3           |2.249E+08     |1.366E+07       |0.0607
-3.2           |2.207E+08     |1.464E+07       |0.0663
-0.6           |2.149E+08     |1.663E+07       |0.0774
1.1            |2.109E+08     |1.794E+07       |0.0851
2.3            |2.053E+08     |1.933E+07       |0.0942
4.3            |1.960E+08     |2.110E+07       |0.1077
6.3            |1.866E+08     |2.233E+07       |0.1197
7.8            |1.777E+08     |2.300E+07       |0.1294
9.3            |1.682E+08     |2.305E+07       |0.1371
11.2           |1.564E+08     |2.241E+07       |0.1433
12.9           |1.475E+08     |2.149E+07       |0.1457
14.1           |1.403E+08     |2.060E+07       |0.1468
15.8           |1.313E+08     |1.902E+07       |0.1448
17.5           |1.236E+08     |1.747E+07       |0.1413
18.9           |1.175E+08     |1.625E+07       |0.1383
20.3           |1.117E+08     |1.503E+07       |0.1346
22.0           |1.060E+08     |1.364E+07       |0.1287
23.5           |1.015E+08     |1.264E+07       |0.1246
25.0           |9.728E+07     |1.158E+07       |0.1191
26.5           |9.354E+07     |1.068E+07       |0.1141
28.1           |9.007E+07     |9.814E+06       |0.1090
29.6           |8.715E+07     |9.138E+06       |0.1048
31.0           |8.473E+07     |8.548E+06       |0.1009
32.4           |8.240E+07     |7.977E+06       |0.0968
34.0           |7.988E+07     |7.366E+06       |0.0922
35.3           |7.813E+07     |6.966E+06       |0.0892
36.8           |7.629E+07     |6.454E+06       |0.0846
38.1           |7.466E+07     |6.092E+06       |0.0816
39.6           |7.300E+07     |5.701E+06       |0.0781
41.1           |7.137E+07     |5.360E+06       |0.0751
42.3           |6.986E+07     |5.059E+06       |0.0724
43.9           |6.811E+07     |4.725E+06       |0.0694
45.4           |6.642E+07     |4.473E+06       |0.0673
46.6           |6.492E+07     |4.301E+06       |0.0662
48.0           |6.312E+07     |4.108E+06       |0.0651
49.5           |6.122E+07     |3.939E+06       |0.0643
51.0           |5.914E+07     |3.725E+06       |0.0630
52.3           |5.729E+07     |3.614E+06       |0.0631
53.6           |5.545E+07     |3.475E+06       |0.0627
55.2           |5.339E+07     |3.354E+06       |0.0628
56.4           |5.173E+07     |3.279E+06       |0.0634
57.7           |4.999E+07     |3.225E+06       |0.0645
59.3           |4.829E+07     |3.138E+06       |0.0650
60.8           |4.667E+07     |3.080E+06       |0.0660
62.2           |4.510E+07     |3.024E+06       |0.0670
63.4           |4.392E+07     |2.982E+06       |0.0679
64.8           |4.266E+07     |2.944E+06       |0.0690
66.1           |4.134E+07     |2.881E+06       |0.0697
67.7           |4.003E+07     |2.877E+06       |0.0719