Folder: Master_degree_Thesis/Latex/Final_thesis_document/Raw_Data/TGA

Note: README.md
# Master Degree Thesis

Readme will be upgraded with notes on files and directory structures, as the projects starts getting shaped

File: PHBH 10layer.txt
Curve Name:
  !PHBH_10 layer
Curve Values:
       Index           t          Ts          Tr       Value
                     [s]        [�C]        [�C]         [%]
           0           0     32.8067          25         100
          36          36     37.8297          31     100.956
          72          72     42.5425          37     101.059
         108         108     47.4316          43     101.135
         144         144     52.4677          49     101.197
         180         180      57.582          55     101.249
         216         216     62.7888          61     101.298
         252         252     68.0923          67     101.345
         288         288     73.4303          73     101.393
         324         324     78.8079          79     101.442
         360         360     84.2587          85      101.49
         396         396     89.7383          91     101.536
         432         432     95.2428          97     101.582
         468         468     100.807         103     101.622
         504         504     106.384         109     101.663
         540         540     111.997         115       101.7
         576         576     117.637         121     101.737
         612         612     123.303         127     101.774
         648         648     128.979         133     101.808
         684         684     134.741         139     101.838
         720         720     140.564         145      101.87
         756         756     146.386         151     101.898
         792         792     152.215         157     101.927
         828         828     158.052         163      101.96
         864         864     163.911         169     101.985
         900         900     169.775         175      102.01
         936         936     175.666         181     102.038
         972         972     181.577         187      102.06
        1008        1008     187.482         193     102.085
        1044        1044     193.421         199     102.104
        1080        1080     199.352         205     102.122
        1116        1116     205.311         211     102.135
        1152        1152     211.275         217     102.152
        1188        1188     217.243         223     102.155
        1224        1224     223.249         229     102.163
        1260        1260      229.24         235     102.158
        1296        1296     235.287         241     102.142
        1332        1332     241.319         247     102.103
        1368        1368     247.363         253     102.016
        1404        1404     253.441         259     101.819
        1440        1440     259.535         265     101.318
        1476        1476     265.647         271     100.212
        1512        1512     271.762         277     97.6856
        1548        1548     277.849         283     91.2218
        1584        1584     283.827         289     77.2176
        1620        1620     289.501         295     53.4591
        1656        1656     295.137         301     23.8539
        1692        1692     301.691         307     6.43053
        1728        1728      307.88         313     5.47441
        1764        1764     313.955         319     5.39875
        1800        1800     320.025         325      5.3608
        1836        1836     326.053         331     5.31763
        1872        1872     332.082         337     5.27996
        1908        1908     338.113         343     5.23868
        1944        1944     344.139         349     5.18736
        1980        1980     350.172         355     5.13499
        2016        2016     356.215         361      5.0741
        2052        2052     362.255         367     5.01044
        2088        2088     368.291         373     4.95066
        2124        2124     374.303         379     4.89708
        2160        2160     380.325         385     4.86156
        2196        2196     386.337         391     4.82777
        2232        2232     392.352         397     4.80368
        2268        2268     398.364         403     4.77863
        2304        2304     404.368         409     4.75427
        2340        2340     410.402         415     4.73077
        2376        2376     416.435         421     4.70079
        2412        2412     422.454         427     4.66628
        2448        2448     428.461         433     4.63053
        2484        2484     434.466         439     4.59981
        2520        2520     440.459         445     4.55522
        2556        2556     446.443         451     4.52105
        2592        2592      452.42         457     4.47916
        2628        2628     458.404         463     4.44346
        2664        2664     464.364         469     4.41486
        2700        2700     470.315         475     4.38837
        2736        2736     476.249         481     4.37865
        2772        2772     482.191         487     4.37551
        2808        2808     488.134         493     4.37671
        2844        2844      494.07         499     4.37776
        2880        2880     499.995         505      4.3862
        2916        2916     505.927         511      4.3886
        2952        2952     511.861         517      4.3957
        2988        2988     517.786         523     4.40242
        3024        3024     523.698         529     4.40519
        3060        3060     529.618         535     4.41467
        3096        3096     535.529         541     4.41469
        3132        3132     541.427         547     4.42417
        3168        3168     547.325         553     4.42419
        3204        3204     553.225         559     4.43248
        3240        3240     559.103         565     4.43367
        3276        3276     564.988         571     4.44315
        3312        3312     570.867         577     4.45028
        3348        3348     576.737         583     4.45266
        3384        3384     582.599         589     4.45266
        3420        3420     588.465         595     4.46145
        3456        3456     594.319         601     4.46671
        3492        3492     600.165         607     4.47161
        3528        3528     606.017         613     4.47194
        3564        3564     611.858         619     4.48078
        3600        3600     617.702         625      4.4831
        3636        3636      623.53         631     4.48655
        3672        3672     629.355         637     4.49063
        3708        3708     635.184         643     4.49816
        3744        3744     641.005         649     4.50013
        3780        3780     646.813         655     4.50025
        3816        3816     652.617         661     4.50745
        3852        3852     658.425         667     4.50962
        3888        3888     664.225         673     4.50962
        3924        3924     670.012         679     4.51908
        3960        3960     675.809         685     4.51912
        3996        3996     681.584         691     4.51912
        4032        4032     687.367         697     4.51912
        4068        4068     693.131         703     4.52261
        4104        4104     698.894         709      4.5249
        4140        4140     704.656         715     4.52861
        4176        4176     710.417         721     4.52862
        4212        4212     716.166         727     4.52888
        4248        4248     721.915         733     4.53532
        4284        4284      727.66         739     4.53811
        4320        4320     733.396         745     4.53803
        4356        4356     739.131         751     4.53811
        4392        4392     744.864         757     4.53999
        4428        4428     750.596         763     4.53811
        4464        4464     756.331         769     4.54067
        4500        4500     762.045         775       4.539
        4536        4536     767.762         781     4.53944
        4572        4572     773.465         787     4.54243
        4608        4608     779.168         793     4.53823
        4644        4644     784.869         799     4.54342
        4680        4680     790.564         805     4.54655
        4716        4716     796.263         811     4.53814
        4752        4752     801.956         817     4.54184
        4788        4788     807.633         823      4.5389
        4824        4824     813.305         829     4.53811
        4860        4860     818.985         835     4.53942
        4896        4896     824.664         841     4.54198
        4932        4932     830.326         847     4.53811
        4968        4968     835.995         853     4.53934
        5004        5004      841.65         859     4.53811
        5040        5040     847.317         865     4.53811
        5076        5076     852.978         871     4.53811
        5112        5112     858.623         877     4.54226
        5148        5148     864.244         883     4.53811
        5184        5184     869.877         889     4.53811
        5220        5220     875.507         895     4.53064
        5244        5244     879.257         899     4.52868
Results:
Texts:
  !PHBH_10 layer
  PHBH_10 layer. 10.5330 mg

Sample:
  PHBH_10 layer. 10.5330 mg
Sample Remarks:

Method:
  25-900_10�C/min_air50ml/min_luca

File: PHBH p09.txt
Curve Name:
  !PHBH_powder
Curve Values:
       Index           t          Ts          Tr       Value
                     [s]        [°C]        [°C]         [%]
           0           0     32,2597          25         100
          36          36     37,2857          31     100,308
          72          72     41,9357          37     100,328
         108         108     46,8078          43     100,341
         144         144     51,8081          49     100,354
         180         180     56,9163          55     100,368
         216         216     62,1165          61     100,383
         252         252      67,401          67     100,397
         288         288       72,74          73     100,411
         324         324     78,1168          79     100,425
         360         360     83,5104          85     100,438
         396         396     88,9556          91     100,451
         432         432     94,4198          97     100,465
         468         468     99,9499         103     100,477
         504         504     105,514         109     100,488
         540         540     111,101         115       100,5
         576         576     116,672         121     100,509
         612         612     122,241         127     100,522
         648         648      127,83         133      100,53
         684         684     133,695         139     100,538
         720         720     139,684         145     100,546
         756         756     145,628         151     100,554
         792         792     151,531         157     100,562
         828         828     157,425         163     100,569
         864         864     163,328         169     100,576
         900         900     169,232         175     100,585
         936         936     175,135         181     100,591
         972         972     181,054         187     100,597
        1008        1008     186,989         193     100,603
        1044        1044     192,933         199     100,607
        1080        1080     198,895         205     100,611
        1116        1116     204,848         211     100,611
        1152        1152      210,84         217     100,607
        1188        1188      216,81         223     100,597
        1224        1224     222,793         229     100,577
        1260        1260     228,787         235     100,542
        1296        1296     234,798         241     100,494
        1332        1332     240,823         247     100,445
        1368        1368     246,885         253     100,383
        1404        1404     252,936         259     100,282
        1440        1440     258,938         265       100,1
        1476        1476     264,903         271     99,7251
        1512        1512     270,831         277     98,8066
        1548        1548     276,449         283     95,2151
        1584        1584     280,824         289     85,8667
        1620        1620     284,917         295     69,6818
        1656        1656     289,376         301     47,4504
        1692        1692     294,893         307     22,6923
        1728        1728     302,923         313     3,99408
        1764        1764     312,119         319     2,73214
        1800        1800     319,363         325     2,65308
        1836        1836     325,925         331     2,60031
        1872        1872     332,209         337     2,55147
        1908        1908     338,368         343     2,50022
        1944        1944     344,443         349     2,44294
        1980        1980     350,508         355     2,37907
        2016        2016     356,568         361     2,30546
        2052        2052     362,608         367     2,22707
        2088        2088     368,638         373     2,15385
        2124        2124     374,655         379     2,09521
        2160        2160     380,638         385     2,04994
        2196        2196      386,61         391     2,01637
        2232        2232     392,609         397     1,98808
        2268        2268     398,617         403      1,9615
        2304        2304     404,616         409     1,93372
        2340        2340     410,646         415     1,90395
        2376        2376     416,683         421     1,87063
        2412        2412     422,729         427     1,83159
        2448        2448      428,77         433     1,78649
        2484        2484     434,824         439      1,7335
        2520        2520     440,855         445     1,67647
        2556        2556      446,81         451     1,62596
        2592        2592     452,729         457     1,58626
        2628        2628     458,609         463     1,56124
        2664        2664     464,487         469     1,54995
        2700        2700     470,412         475     1,54443
        2736        2736     476,339         481     1,54253
        2772        2772     482,278         487     1,54087
        2808        2808     488,225         493     1,54086
        2844        2844     494,164         499     1,54086
        2880        2880       500,1         505     1,54158
        2916        2916      506,03         511     1,54286
        2952        2952     511,965         517     1,54348
        2988        2988     517,892         523     1,54556
        3024        3024     523,809         529     1,54633
        3060        3060     529,727         535     1,54846
        3096        3096     535,635         541     1,54871
        3132        3132     541,544         547     1,55123
        3168        3168      547,45         553     1,55266
        3204        3204     553,344         559      1,5538
        3240        3240      559,23         565     1,55539
        3276        3276     565,116         571     1,55656
        3312        3312     570,979         577     1,55857
        3348        3348     576,865         583     1,55918
        3384        3384     582,725         589     1,56081
        3420        3420      588,58         595     1,56179
        3456        3456     594,437         601     1,56216
        3492        3492      600,29         607     1,56441
        3528        3528     606,131         613     1,56441
        3564        3564     611,958         619     1,56702
        3600        3600     617,794         625     1,56736
        3636        3636     623,631         631     1,56964
        3672        3672     629,445         637     1,56964
        3708        3708     635,271         643     1,57153
        3744        3744     641,072         649     1,57226
        3780        3780     646,882         655     1,57255
        3816        3816     652,682         661     1,57458
        3852        3852     658,475         667     1,57487
        3888        3888     664,267         673     1,57518
        3924        3924     670,054         679     1,57667
        3960        3960      675,85         685     1,57749
        3996        3996     681,621         691     1,57823
        4032        4032     687,398         697     1,57868
        4068        4068     693,168         703     1,58006
        4104        4104     698,939         709     1,58011
        4140        4140     704,704         715     1,58018
        4176        4176     710,462         721     1,58146
        4212        4212     716,228         727     1,58265
        4248        4248     721,977         733     1,58272
        4284        4284     727,723         739     1,58272
        4320        4320      733,46         745     1,58507
        4356        4356     739,209         751     1,58533
        4392        4392     744,933         757     1,58521
        4428        4428     750,664         763     1,58534
        4464        4464     756,385         769     1,58534
        4500        4500     762,102         775     1,58567
        4536        4536     767,823         781     1,58534
        4572        4572     773,516         787     1,58686
        4608        4608     779,217         793     1,58648
        4644        4644     784,904         799     1,58542
        4680        4680     790,603         805     1,58604
        4716        4716     796,271         811     1,58534
        4752        4752     801,968         817     1,58709
        4788        4788      807,64         823     1,58766
        4824        4824      813,31         829     1,58566
        4860        4860     818,988         835     1,58534
        4896        4896     824,659         841     1,58534
        4932        4932     830,325         847     1,58607
        4968        4968      835,99         853     1,58783
        5004        5004     841,642         859     1,58561
        5040        5040     847,286         865     1,58534
        5076        5076     852,946         871     1,58534
        5112        5112     858,584         877     1,58534
        5148        5148     864,222         883     1,58534
        5184        5184     869,849         889     1,58309
        5220        5220     875,488         895     1,58377
        5244        5244     879,248         899     1,58273
Results:
Texts:
  !PHBH_powder
  PHBH_powder, 38,2253 mg

Sample:
  PHBH_powder, 38,2253 mg
Sample Remarks:

Method:
  25-900_10°C/min_air50ml/min_luca