Folder: Master_degree_Thesis/Latex/Final_thesis_document/Raw_Data/TGA (part 2)

File: PHBH p 07.txt
Curve Name:
  !PHBHp0607
Curve Values:
       Index           t          Ts          Tr       Value
                     [s]        [°C]        [°C]         [%]
           0           0     33,0274          25         100
          36          36     38,2559          31     100,543
          72          72     43,0669          37      100,59
         108         108     48,0546          43     100,632
         144         144     53,1613          49     100,675
         180         180     58,3653          55     100,715
         216         216      63,663          61     100,754
         252         252      69,011          67     100,792
         288         288     74,3879          73     100,829
         324         324     79,8287          79     100,866
         360         360     85,3351          85     100,901
         396         396     90,8697          91     100,934
         432         432     96,4598          97     100,968
         468         468     102,066         103     100,994
         504         504     107,687         109     101,024
         540         540     113,333         115     101,051
         576         576     119,015         121      101,08
         612         612     124,653         127     101,107
         648         648     130,456         133      101,13
         684         684     136,324         139     101,155
         720         720     142,224         145     101,175
         756         756     148,102         151     101,195
         792         792     153,969         157     101,218
         828         828      159,87         163     101,236
         864         864     165,783         169     101,255
         900         900     171,701         175     101,272
         936         936     177,636         181     101,287
         972         972     183,581         187     101,298
        1008        1008     189,532         193     101,295
        1044        1044     195,488         199     101,252
        1080        1080     201,455         205     101,086
        1116        1116     207,408         211     100,605
        1152        1152      213,28         217     99,4889
        1188        1188     219,101         223     97,2149
        1224        1224     224,828         229     92,9835
        1260        1260     230,418         235      85,652
        1296        1296     236,086         241     76,1205
        1332        1332     241,838         247     64,6392
        1368        1368     247,699         253     52,1481
        1404        1404     253,654         259     38,9891
        1440        1440     259,695         265     25,4879
        1476        1476      266,14         271     13,7178
        1512        1512     273,099         277     8,11295
        1548        1548     279,804         283     7,39108
        1584        1584     286,126         289     7,25457
        1620        1620      292,31         295     7,14886
        1656        1656     298,432         301     7,04757
        1692        1692     304,503         307     6,95467
        1728        1728     310,581         313     6,85736
        1764        1764     316,636         319     6,75555
        1800        1800     322,694         325     6,64876
        1836        1836     328,758         331     6,54107
        1872        1872     334,796         337     6,42924
        1908        1908     340,848         343     6,31563
        1944        1944     346,906         349     6,18982
        1980        1980     352,948         355     6,04769
        2016        2016     359,008         361     5,87941
        2052        2052     365,047         367     5,68977
        2088        2088     371,098         373     5,47085
        2124        2124     377,153         379     5,23414
        2160        2160     383,192         385     4,99315
        2196        2196     389,227         391      4,7892
        2232        2232     395,238         397     4,64212
        2268        2268     401,263         403     4,53826
        2304        2304     407,286         409     4,45152
        2340        2340     413,347         415     4,36601
        2376        2376     419,451         421     4,26075
        2412        2412     425,557         427     4,13195
        2448        2448     431,577         433     3,99899
        2484        2484      437,51         439     3,88674
        2520        2520     443,423         445     3,80324
        2556        2556     449,322         451     3,73456
        2592        2592      455,25         457     3,68366
        2628        2628     461,213         463     3,63919
        2664        2664     467,186         469     3,58943
        2700        2700     473,177         475     3,54102
        2736        2736     479,167         481     3,49189
        2772        2772     485,138         487     3,44321
        2808        2808       491,1         493      3,3998
        2844        2844     497,032         499     3,36224
        2880        2880     502,962         505     3,32994
        2916        2916     508,885         511     3,30401
        2952        2952     514,798         517     3,28553
        2988        2988      520,73         523      3,2685
        3024        3024     526,652         529     3,25532
        3060        3060     532,583         535     3,24229
        3096        3096     538,497         541     3,22621
        3132        3132     544,416         547     3,21147
        3168        3168     550,336         553     3,19754
        3204        3204     556,263         559     3,18271
        3240        3240     562,233         565     3,16261
        3276        3276     568,168         571     3,12397
        3312        3312     574,161         577     3,08209
        3348        3348     579,972         583     3,06143
        3384        3384     585,906         589     3,04244
        3420        3420     591,814         595     3,03161
        3456        3456     597,701         601     3,01961
        3492        3492     603,598         607      3,0103
        3528        3528     609,473         613     3,00754
        3564        3564     615,359         619     3,00348
        3600        3600     621,235         625     3,00311
        3636        3636       627,1         631     2,99702
        3672        3672     632,957         637     2,99537
        3708        3708     638,817         643     2,99702
        3744        3744     644,673         649     2,99702
        3780        3780     650,532         655     2,99757
        3816        3816     656,364         661     2,99702
        3852        3852     662,203         667     3,00192
        3888        3888     668,043         673     2,99884
        3924        3924     673,884         679     3,00348
        3960        3960      679,73         685     3,00348
        3996        3996      685,56         691     3,00348
        4032        4032     691,398         697     3,00532
        4068        4068     697,215         703     3,00994
        4104        4104     703,044         709     3,00994
        4140        4140     708,858         715     3,01468
        4176        4176     714,673         721      3,0136
        4212        4212     720,488         727      3,0164
        4248        4248     726,291         733     3,01693
        4284        4284     732,094         739     3,02285
        4320        4320     737,889         745     3,02285
        4356        4356     743,673         751     3,02628
        4392        4392      749,46         757     3,02931
        4428        4428     755,233         763     3,03114
        4464        4464     761,011         769     3,03366
        4500        4500     766,782         775     3,03577
        4536        4536     772,552         781     3,03577
        4572        4572      778,32         787     3,03577
        4608        4608     784,068         793     3,03589
        4644        4644     789,836         799     3,04223
        4680        4680     795,595         805     3,04212
        4716        4716     801,356         811     3,04295
        4752        4752     807,119         817     3,04242
        4788        4788     812,867         823     3,04511
        4824        4824     818,606         829     3,04869
        4860        4860     824,326         835     3,04869
        4896        4896     830,048         841     3,04867
        4932        4932     835,769         847      3,0487
        4968        4968     841,486         853     3,05514
        5004        5004     847,199         859     3,05678
        5040        5040     852,899         865     3,05932
        5076        5076     858,614         871     3,05672
        5112        5112     864,323         877     3,06161
        5148        5148     870,006         883     3,06714
        5184        5184     875,664         889     3,06807
        5220        5220     881,346         895     3,06852
        5244        5244     885,117         899     3,06878
Results:
Texts:
  !PHBHp0607
  PHBHp0607, 15,4821 mg

Sample:
  PHBHp0607, 15,4821 mg
Sample Remarks:

Method:
  25-900_10°C/min_air50ml/min_luca

File: PHBH_Granulo
#
#
# Curve Name:
#   !PHBH
# Curve Values:
#        Index           t          Ts          Tr       Value
#                      [s]        [°C]        [°C]         [%]
           0           0     32.1246          25         100
          36          36     37.1336          31     100.376
          72          72     41.8255          37      100.42
         108         108     46.6791          43     100.455
         144         144     51.7236          49     100.486
         180         180     56.8384          55     100.514
         216         216     62.0493          61     100.537
         252         252     67.3609          67      100.56
         288         288     72.7368          73      100.58
         324         324     78.1692          79       100.6
         360         360     83.6618          85     100.615
         396         396     89.1551          91      100.63
         432         432     94.6506          97     100.644
         468         468     100.246         103     100.659
         504         504     105.876         109     100.671
         540         540      111.51         115     100.681
         576         576      117.15         121     100.691
         612         612     122.859         127     100.694
         648         648     128.602         133     100.697
         684         684     134.337         139     100.699
         720         720     140.323         145     100.703
         756         756     146.295         151     100.707
         792         792     152.254         157     100.712
         828         828     158.205         163     100.719
         864         864     164.148         169     100.726
         900         900     170.117         175     100.736
         936         936     176.082         181     100.743
         972         972     182.045         187     100.754
        1008        1008      188.03         193     100.762
        1044        1044      194.03         199     100.767
        1080        1080     200.031         205     100.779
        1116        1116     206.044         211     100.783
        1152        1152     212.065         217     100.787
        1188        1188      218.09         223     100.792
        1224        1224     224.157         229     100.793
        1260        1260     230.224         235      100.79
        1296        1296     236.299         241     100.774
        1332        1332     242.349         247     100.735
        1368        1368     248.365         253     100.649
        1404        1404     254.388         259     100.448
        1440        1440     260.312         265     99.9183
        1476        1476     265.994         271     98.3183
        1512        1512     270.884         277      92.126
        1548        1548     275.453         283     78.5726
        1584        1584     279.656         289     57.5563
        1620        1620     284.058         295      28.352
        1656        1656     292.053         301      2.1059
        1692        1692     301.381         307     1.84611
        1728        1728     308.712         313     1.81705
        1764        1764     315.377         319     1.79526
        1800        1800     321.736         325     1.77424
        1836        1836     327.979         331     1.75856
        1872        1872     334.162         337     1.74136
        1908        1908     340.286         343     1.72454
        1944        1944      346.38         349     1.70848
        1980        1980      352.46         355     1.68746
        2016        2016     358.512         361     1.67599
        2052        2052     364.568         367     1.67025
        2088        2088     370.605         373     1.66184
        2124        2124     376.651         379     1.65458
        2160        2160     382.686         385     1.64808
        2196        2196     388.737         391     1.63049
        2232        2232     394.787         397     1.61941
        2268        2268      400.82         403      1.6087
        2304        2304     406.867         409     1.59915
        2340        2340     412.901         415     1.58729
        2376        2376     418.919         421     1.58118
        2412        2412     424.944         427     1.58194
        2448        2448     430.936         433     1.57621
        2484        2484     436.948         439     1.57583
        2520        2520     442.954         445     1.57583
        2556        2556     448.973         451     1.57238
        2592        2592     454.966         457     1.57544
        2628        2628     460.976         463     1.57583
        2664        2664     466.994         469     1.57659
        2700        2700     473.005         475     1.57583
        2736        2736     479.016         481     1.57583
        2772        2772     485.015         487     1.57391
        2808        2808     491.024         493     1.57315
        2844        2844     497.013         499     1.57353
        2880        2880     502.995         505     1.57583
        2916        2916     508.969         511     1.57812
        2952        2952     514.951         517     1.58041
        2988        2988     520.927         523     1.58271
        3024        3024     526.894         529     1.58729
        3060        3060      532.85         535     1.58959
        3096        3096     538.823         541      1.5957
        3132        3132     544.773         547     1.59991
        3168        3168     550.725         553     1.60335
        3204        3204      556.67         559     1.60794
        3240        3240     562.603         565     1.61291
        3276        3276     568.555         571     1.61711
        3312        3312     574.479         577     1.62132
        3348        3348     580.396         583     1.62591
        3384        3384      586.32         589     1.63088
        3420        3420     592.232         595     1.63623
        3456        3456     598.156         601     1.64082
        3492        3492     604.051         607      1.6454
        3528        3528     609.963         613     1.65037
        3564        3564     615.847         619     1.65496
        3600        3600     621.749         625      1.6584
        3636        3636     627.631         631     1.66184
        3672        3672     633.505         637     1.66681
        3708        3708     639.385         643     1.67216
        3744        3744     645.253         649     1.67484
        3780        3780     651.119         655     1.67904
        3816        3816     656.974         661     1.68249
        3852        3852     662.829         667     1.68593
        3888        3888     668.673         673     1.69243
        3924        3924     674.537         679     1.69548
        3960        3960     680.384         685      1.6974
        3996        3996     686.231         691     1.70275
        4032        4032     692.059         697     1.70428
        4068        4068     697.886         703     1.70772
        4104        4104     703.705         709     1.71078
        4140        4140     709.529         715     1.71345
        4176        4176     715.357         721     1.71919
        4212        4212     721.159         727     1.72224
        4248        4248     726.962         733     1.72721
        4284        4284     732.771         739     1.72989
        4320        4320     738.582         745     1.73218
        4356        4356      744.39         751      1.7341
        4392        4392     750.188         757      1.7383
        4428        4428     755.967         763     1.74098
        4464        4464     761.765         769     1.74365
        4500        4500     767.544         775     1.74671
        4536        4536     773.344         781     1.75092
        4572        4572     779.122         787      1.7513
        4608        4608     784.905         793      1.7555
        4644        4644     790.689         799     1.75818
        4680        4680     796.456         805     1.76162
        4716        4716     802.214         811     1.76506
        4752        4752     807.987         817     1.76888
        4788        4788     813.741         823     1.77156
        4824        4824     819.507         829     1.77347
        4860        4860     825.278         835     1.77538
        4896        4896     831.031         841     1.77882
        4932        4932     836.798         847     1.77882
        4968        4968     842.535         853     1.78227
        5004        5004     848.297         859     1.78074
        5040        5040     854.027         865     1.78571
        5076        5076     859.774         871     1.78723
        5112        5112     865.512         877     1.78991
        5148        5148     871.248         883     1.79259
        5184        5184     876.978         889     1.79603
        5220        5220     882.692         895     1.79603
        5244        5244     886.504         899     1.80061
# Results:
# Texts:
#   !PHBH
#   PHBH. 29.0641 mg
#
# Sample:
#   PHBH. 29.0641 mg
# Sample Remarks:
#
# Method:
#   25-900_10°C/min_air50ml/min_luca