Folder: Master_degree_Thesis/Latex/Final_thesis_document/Raw_Data/TGA (part 3)

File: PHBH_Polvere
Curve Name:
  !PHBH polvere
Curve Values:
       Index           t          Ts          Tr       Value
                     [s]        [°C]        [°C]         [%]
           0           0     33,6798          25         100
          36          36     38,6842          31     101,411
          72          72      43,326          37     101,507
         108         108     48,1935          43     101,619
         144         144     53,2318          49     101,707
         180         180     58,3643          55     101,792
         216         216      63,608          61     101,871
         252         252     68,9289          67     101,951
         288         288     74,3283          73     102,031
         324         324     79,8097          79     102,103
         360         360     85,2891          85      102,18
         396         396     90,8482          91     102,246
         432         432     96,4324          97     102,317
         468         468     102,059         103     102,381
         504         504     107,709         109     102,453
         540         540     113,373         115     102,511
         576         576     119,074         121     102,574
         612         612     124,777         127     102,632
         648         648     130,611         133      102,69
         684         684     136,455         139     102,748
         720         720     142,339         145       102,8
         756         756     148,225         151     102,844
         792         792     154,109         157      102,89
         828         828     160,005         163     102,943
         864         864     165,933         169     102,987
         900         900     171,861         175     103,027
         936         936     177,793         181      103,07
         972         972      183,76         187     103,104
        1008        1008     189,723         193     103,145
        1044        1044     195,688         199     103,169
        1080        1080     201,691         205     103,184
        1116        1116     207,685         211     103,183
        1152        1152     213,702         217     103,143
        1188        1188     219,724         223     103,066
        1224        1224     225,737         229     102,923
        1260        1260     231,789         235     102,692
        1296        1296     237,839         241     102,353
        1332        1332     243,921         247     101,853
        1368        1368     249,985         253     101,131
        1404        1404     256,033         259     100,068
        1440        1440     262,048         265     98,0892
        1476        1476     268,009         271     93,7186
        1512        1512     273,819         277     83,4593
        1548        1548     279,141         283     64,5471
        1584        1584     284,601         289     35,4469
        1620        1620       290,8         295     5,55204
        1656        1656     297,836         301     3,06769
        1692        1692     304,269         307     3,02209
        1728        1728     310,477         313     2,99515
        1764        1764     316,594         319     2,97073
        1800        1800      322,68         325     2,94693
        1836        1836     328,743         331     2,92578
        1872        1872     334,789         337      2,9008
        1908        1908     340,813         343     2,87478
        1944        1944     346,832         349     2,85586
        1980        1980     352,851         355     2,83963
        2016        2016     358,855         361     2,82314
        2052        2052     364,874         367     2,80766
        2088        2088     370,881         373     2,79346
        2124        2124     376,894         379     2,77184
        2160        2160     382,899         385     2,75583
        2196        2196     388,913         391     2,73697
        2232        2232     394,905         397     2,71675
        2268        2268      400,91         403     2,69298
        2304        2304      406,89         409     2,67261
        2340        2340     412,879         415      2,6501
        2376        2376     418,854         421      2,6318
        2412        2412     424,826         427     2,61414
        2448        2448     430,795         433     2,59824
        2484        2484     436,761         439     2,59865
        2520        2520     442,718         445     2,58978
        2556        2556     448,671         451     2,58999
        2592        2592     454,616         457     2,59936
        2628        2628     460,574         463     2,61135
        2664        2664     466,526         469     2,61187
        2700        2700     472,457         475     2,62427
        2736        2736     478,404         481     2,63434
        2772        2772     484,332         487      2,6468
        2808        2808     490,268         493     2,66238
        2844        2844     496,198         499     2,67414
        2880        2880     502,121         505     2,69114
        2916        2916     508,033         511     2,70276
        2952        2952     513,949         517     2,72096
        2988        2988     519,856         523     2,73635
        3024        3024     525,756         529     2,74801
        3060        3060     531,665         535     2,76113
        3096        3096     537,554         541     2,77372
        3132        3132     543,434         547     2,79371
        3168        3168     549,308         553     2,80539
        3204        3204     555,196         559      2,8168
        3240        3240     561,063         565     2,83774
        3276        3276     566,935         571     2,85102
        3312        3312     572,793         577     2,86222
        3348        3348     578,652         583     2,87377
        3384        3384     584,499         589     2,88522
        3420        3420     590,345         595     2,89662
        3456        3456     596,179         601     2,90804
        3492        3492     601,994         607     2,91944
        3528        3528     607,849         613     2,93083
        3564        3564     613,711         619     2,93351
        3600        3600     619,553         625     2,94256
        3636        3636     625,389         631     2,95492
        3672        3672     631,221         637     2,95365
        3708        3708     637,056         643     2,95364
        3744        3744      642,88         649     2,95365
        3780        3780     648,704         655     2,95231
        3816        3816      654,54         661     2,94225
        3852        3852     660,367         667     2,93834
        3888        3888     666,199         673     2,92563
        3924        3924     672,046         679     2,91529
        3960        3960      677,88         685     2,89408
        3996        3996     683,721         691     2,87382
        4032        4032     689,568         697     2,84976
        4068        4068     695,415         703      2,8181
        4104        4104     701,266         709      2,7843
        4140        4140      707,13         715      2,7417
        4176        4176     712,987         721     2,70023
        4212        4212     718,867         727        2,65
        4248        4248     724,733         733     2,59854
        4284        4284     730,611         739     2,53481
        4320        4320     736,486         745     2,46294
        4356        4356      742,38         751     2,38598
        4392        4392     748,286         757     2,30066
        4428        4428       754,2         763     2,20985
        4464        4464     760,137         769     2,11015
        4500        4500     766,088         775     2,00278
        4536        4536     772,056         781     1,88547
        4572        4572     778,038         787     1,75685
        4608        4608     784,019         793      1,6236
        4644        4644     790,004         799     1,48242
        4680        4680     795,969         805     1,32834
        4716        4716     801,898         811     1,16195
        4752        4752     807,789         817    0,996751
        4788        4788     813,633         823    0,819838
        4824        4824     819,431         829    0,635936
        4860        4860     825,205         835    0,447319
        4896        4896      830,96         841    0,255958
        4932        4932     836,696         847   0,0614097
        4968        4968     842,415         853   -0,137646
        5004        5004     848,129         859   -0,334254
        5040        5040     853,841         865   -0,527313
        5076        5076     859,539         871    -0,72099
        5112        5112     865,227         877     -0,9149
        5148        5148     870,888         883    -1,09604
        5184        5184     876,546         889    -1,27329
        5220        5220     882,178         895    -1,44685
        5244        5244     885,934         899    -1,55983
Results:
Texts:
  !PHBH polvere
  PHBH polvere, 8,7688 mg

Sample:
  PHBH polvere, 8,7688 mg
Sample Remarks:

Method:
  25-900_10°C/min_air50ml/min_luca